onset	duration	type	choice	rwdval	RT
2565138.36	3	bandit	2	0	0.8735
2565145.36	3	memory	4	-0.25	2.9616
2565151.36	3	bandit	1	0	1.1195
2565158.343	3	bandit	3	0	2.0991
2565165.327	3	bandit	2	10	0.6912
2565172.31	3	bandit	2	10	0.5016
2565179.31	3	memory	1	0.25	2.8344
2565184.31	3	bandit	1	0	1.4405
2565191.293	3	bandit	2	10	0.7367
2565198.276	3	bandit	2	0	1.6095
2565205.259	3	bandit	3	10	0.7834
2565214.259	3	bandit	2	10	0.5808
2565223.259	3	memory	4	0.25	1.5424
2565228.276	3	bandit	3	0	1.7917
2565235.259	3	bandit	2	0	0.5351
2565242.242	3	bandit	2	10	0.5877
2565249.226	3	bandit	2	0	0.7023
2565256.225	3	memory	1	0.25	1.6913
2565261.225	3	bandit	2	10	0.8168
2565269.213	3	bandit	2	0	0.6226
2565276.192	3	bandit	2	0	0.7383
2565287.175	3	bandit	2	10	0.5078
2565294.175	3	memory	4	0.25	1.6373
2565300.175	3	bandit	2	10	0.6556
2565307.158	3	bandit	2	10	0.8514
2565314.158	3	bandit	2	0	0.9509
2565322.141	3	bandit	2	0	0.6217
2565329.125	3	bandit	3	10	0.8715
2565336.124	3	memory	2	0.25	2.6729
2565342.124	3	bandit	2	10	1.6579
2565349.108	3	bandit	2	0	0.7362
2565356.107	3	memory	1	0.25	1.6829
2565361.108	3	bandit	2	0	1.3352
2565368.091	3	bandit	3	10	0.4888
2565375.091	3	bandit	2	0	0.5684
2565385.074	3	bandit	2	0	0.4684
2565394.074	3	memory	3	-0.25	2.3891
2565400.09	3	bandit	3	0	1.4764
2565407.09	3	memory	1	0.25	1.6422
2565412.107	3	bandit	2	0	1.5832
2565420.107	3	memory	1	0.25	1.4953
2565425.107	3	bandit	1	0	1.9398
2565432.107	3	memory	4	0.25	1.7914
2565440.106	3	bandit	2	0	0.8501
2565447.106	3	memory	1	0.25	1.4094
2565452.107	3	bandit	2	0	0.6428
2565460.106	3	memory	1	0.25	1.3494
2565465.123	3	bandit	3	10	0.8918
2565472.123	3	memory	4	0.25	1.1541
2565479.139	3	bandit	3	0	0.6231
2565487.139	3	memory	3	0.25	2.0726
2565492.156	3	bandit	2	0	0.9914
2565500.139	3	bandit	1	10	0.9985
2565507.123	3	bandit	3	10	1.2904
2565515.122	3	bandit	3	0	0.5679
2565522.122	3	bandit	1	0	0.642
2565529.122	3	memory	4	-0.25	2.356
2565534.139	3	bandit	2	0	0.9317
2565542.139	3	memory	2	0.25	1.7497
2565548.138	3	bandit	3	0	0.9173
2565555.138	3	memory	1	0.25	1.7168
2565561.155	3	bandit	2	0	0.7572
2565569.155	3	memory	1	0.25	1.3686
2565575.171	3	bandit	1	0	0.6498
2565583.171	3	memory	1	0.25	1.235
2565588.188	3	bandit	3	0	0.8442
2565595.188	3	memory	1	0.25	0.9188
2565600.204	3	bandit	2	10	1.1588
2565609.204	3	memory	1	0.25	1.0793
2565614.221	3	bandit	2	10	0.9385
2565621.221	3	memory	1	0.25	0.9841
2565626.237	3	bandit	2	0	0.9245
2565634.237	3	memory	3	-0.25	1.7521
2565639.254	3	bandit	3	10	1.2935
2565646.254	3	bandit	2	10	0.6086
2565654.237	3	bandit	2	0	0.4539
2565661.237	3	bandit	3	0	0.9939
2565668.237	3	bandit	2	10	0.7504
2565675.237	3	memory	1	0.25	1.1204
2565680.253	3	bandit	2	10	0.6891
2565687.253	3	bandit	2	0	0.5484
2565694.253	3	bandit	1	10	0.9502
2565701.253	3	bandit	2	10	0.4334
2565708.253	3	memory	1	0.25	1.2541
2565713.27	3	bandit	2	0	0.7304
2565721.27	3	bandit	3	10	0.6287
2565728.27	3	bandit	2	10	0.5948
2565735.269	3	bandit	2	10	0.959
2565742.269	3	memory	4	0.25	1.7676
2565747.286	3	bandit	2	0	0.9845
2565755.286	3	memory	1	0.25	1.1328
2565760.302	3	bandit	3	0	0.9929
2565769.302	3	bandit	2	0	0.5482
2565776.302	3	bandit	1	0	0.6148
2565783.302	3	bandit	2	0	0.5492
2565790.302	3	bandit	3	10	0.6284
2565797.302	3	memory	4	-0.25	1.1526
2565802.319	3	bandit	2	0	1.4549
2565809.318	3	memory	1	0.25	0.9578
2565817.319	3	bandit	1	10	0.9728
2565824.318	3	memory	3	-0.25	1.9476
2565830.318	3	bandit	3	10	0.8849
2565837.318	3	memory	2	0.25	1.8451
2565842.335	3	bandit	1	0	0.9651
2565849.335	3	memory	2	0.25	1.7716
2565855.335	3	bandit	3	0	1.0251
2565864.334	3	bandit	2	0	0.7104
2565871.334	3	bandit	2	0	1.049
2565879.334	3	memory	1	0.25	0.9925
2565885.351	3	bandit	1	0	0.9111
2565892.351	3	memory	1	0.25	1.0997
2565897.367	3	bandit	3	10	1.2869
2565905.367	3	bandit	2	0	0.7226
2565914.367	3	bandit	2	0	0.7576
2565922.35	3	bandit	3	10	0.6083
2565929.35	3	memory	3	0.25	1.4954
2565934.367	3	bandit	1	0	1.0852
2565941.367	3	bandit	2	0	0.7429
2565948.367	3	bandit	3	10	0.6485
2565956.35	3	bandit	2	10	0.4821
2565966.35	3	memory	3	-0.25	1.2409
2565971.366	3	bandit	2	0	0.6016
2565978.366	3	memory	2	0.25	1.6237
2565983.383	3	bandit	3	10	0.9519
2565992.383	3	memory	1	0.25	1.2002
2565997.399	3	bandit	2	0	1.0264
2566008.399	3	bandit	3	10	0.7036
2566015.399	3	memory	3	-0.25	1.4163
2566020.416	3	bandit	2	10	0.7837
2566027.416	3	memory	3	0.25	1.3668
2566036.432	3	bandit	2	10	0.509
2566043.432	3	memory	1	0.25	1.0523
2566048.449	3	bandit	3	0	1.0864
2566055.449	3	memory	3	-0.25	1.2947
2566060.465	3	bandit	1	10	0.8569
2566067.465	3	bandit	2	0	0.6421
2566074.465	3	bandit	3	10	1.2127
2566081.465	3	bandit	2	0	0.4669
2566088.465	3	bandit	1	10	0.6628
2566098.465	3	bandit	3	0	0.7355
2566105.465	3	bandit	1	0	0.5693
2566112.465	3	memory	3	-0.25	1.2863
2566118.481	3	bandit	2	0	0.7497
2566125.481	3	bandit	3	0	0.7624
2566132.481	3	memory	1	0.25	1.6652
2566137.498	3	bandit	2	10	0.9646
2566145.497	3	memory	1	0.25	1.5703
2566151.498	3	bandit	3	0	1.3201
2566159.497	3	memory	1	0.25	0.9387
2566164.514	3	bandit	2	0	0.675
2566171.514	3	bandit	1	10	0.5886
2566179.514	3	memory	1	0.25	0.9921
2566184.53	3	bandit	1	0	1.1547
2566191.53	3	memory	1	0.25	0.9258
2566196.547	3	bandit	3	0	1.986
2566203.547	3	memory	1	0.25	1.0992
2566208.563	3	bandit	1	0	0.6144
2566215.563	3	bandit	2	0	1.7508
2566222.563	3	memory	1	0.25	0.877
2566228.58	3	bandit	1	0	0.696
2566236.58	3	memory	3	-0.25	1.4545
2566241.596	3	bandit	3	10	1.6307
2566249.596	3	memory	1	0.25	1.0645
2566254.613	3	bandit	3	0	1.201
2566261.613	3	memory	4	-0.25	1.5817
2566268.629	3	bandit	1	0	0.6951
2566276.629	3	bandit	2	0	1.0912
2566284.629	3	bandit	3	10	0.5204
2566292.629	3	bandit	3	10	1.2674
2566299.629	3	memory	3	-0.25	1.5763
2566305.645	3	bandit	1	10	0.5009
2566316.645	3	memory	3	0.25	1.2869
2566325.662	3	bandit	3	10	0.8379
2566332.662	3	memory	1	0.25	1.1248
2566337.678	3	bandit	1	0	1.0853
2566344.678	3	memory	3	0.25	1.6014
2566349.695	3	bandit	2	10	0.7028
2566356.695	3	memory	1	0.25	1.0055
2566361.711	3	bandit	2	0	0.8567
2566368.711	3	memory	1	0.25	1.0588