onset	duration	type	choice	rwdval	RT
4760958.981	3	bandit	2	10	1.295
4760966.982	3	memory	1	0.25	2.7709
4760971.998	3	bandit	2	0	1.1302
4760978.998	3	memory	1	0.25	1.3796
4760985.014	3	bandit	2	0	1.1647
4760992.014	3	memory	1	0.25	1.371
4760997.031	3	bandit	1	0	0.7349
4761004.014	3	bandit	1	10	2.1507
4761011.014	3	memory	2	0.25	1.7598
4761017.031	3	bandit	1	0	0.7114
4761024.031	3	memory	1	0.25	1.5395
4761029.047	3	bandit	3	0	0.6932
4761037.047	3	bandit	1	0	0.6861
4761045.047	3	memory	1	0.25	2.0232
4761050.064	3	bandit	1	10	1.3729
4761057.063	3	memory	1	0.25	1.6515
4761062.08	3	bandit	1	0	0.9939
4761070.063	3	bandit	1	10	0.9857
4761077.063	3	memory	3	0.25	1.793
4761082.08	3	bandit	3	0	1.7348
4761089.08	3	bandit	1	0	0.9768
4761097.063	3	bandit	2	0	0.5222
4761105.063	3	memory	1	0.25	1.3354
4761110.079	3	bandit	1	0	0.7668
4761117.079	3	memory	4	0.25	1.8209
4761122.096	3	bandit	3	0	0.4271
4761129.096	3	bandit	2	0	0.5267
4761137.096	3	bandit	1	0	0.4229
4761145.096	3	bandit	1	10	0.5909
4761156.096	3	memory	4	0.25	1.3374
4761161.112	3	bandit	1	10	0.4376
4761169.112	3	memory	1	0.25	1.4824
4761174.129	3	bandit	1	0	0.6423
4761182.129	3	memory	1	0.25	1.7478
4761187.145	3	bandit	1	0	0.5988
4761194.145	3	memory	4	-0.25	1.9689
4761199.178	3	bandit	1	0	0.9033
4761206.178	3	bandit	1	0	1.6014
4761213.178	3	bandit	2	10	0.909
4761220.178	3	bandit	2	0	0.6273
4761231.178	3	memory	2	0.25	1.9403
4761237.195	3	bandit	3	0	1.066
4761245.194	3	bandit	2	0	0.4812
4761253.194	3	bandit	1	10	0.5536
4761260.194	3	memory	1	0.25	2.2793
4761267.211	3	bandit	1	10	0.5565
4761274.211	3	bandit	1	10	0.7364
4761281.211	3	bandit	1	10	0.5206
4761288.211	3	bandit	1	0	0.7023
4761295.21	3	bandit	1	0	0.5815
4761302.21	3	memory	1	0.25	1.7308
4761307.227	3	bandit	1	0	0.5565
4761314.227	3	memory	1	0.25	1.7259
4761320.243	3	bandit	1	10	0.5653
4761328.243	3	memory	1	0.25	1.2604
4761335.26	3	bandit	1	0	0.7908
4761342.26	3	memory	2	0.25	1.6587
4761347.276	3	bandit	1	0	0.4748
4761355.276	3	bandit	1	0	0.6742
4761364.276	3	bandit	2	0	0.3368
4761372.259	3	bandit	1	10	0.3654
4761381.259	3	memory	1	0.25	1.2781
4761388.276	3	bandit	1	10	0.5044
4761397.276	3	memory	1	0.25	1.5101
4761405.292	3	bandit	1	0	0.4683
4761412.292	3	memory	1	0.25	1.4502
4761417.309	3	bandit	1	0	0.6493
4761425.309	3	memory	1	0.25	1.7045
4761430.325	3	bandit	1	10	0.8229
4761439.325	3	memory	1	0.25	1.2714
4761448.342	3	bandit	1	0	0.4961
4761456.342	3	memory	1	0.25	1.1194
4761461.358	3	bandit	1	0	0.7764
4761468.358	3	bandit	1	0	0.7044
4761475.358	3	bandit	2	10	0.4213
4761482.358	3	bandit	2	10	0.572
4761489.358	3	memory	1	0.25	1.5304
4761495.358	3	bandit	2	0	0.5186
4761502.358	3	bandit	2	10	0.6169
4761509.358	3	bandit	2	10	0.5428
4761518.358	3	bandit	2	10	0.4347
4761525.357	3	bandit	2	10	0.6815
4761532.357	3	bandit	2	0	0.5586
4761539.358	3	memory	4	0.25	2.0263
4761544.374	3	bandit	2	10	0.4271
4761555.374	3	memory	1	0.25	1.492
4761560.39	3	bandit	2	10	0.9552
4761567.39	3	bandit	2	0	0.4218
4761575.39	3	bandit	2	10	0.5501
4761582.39	3	memory	1	0.25	1.6918
4761590.407	3	bandit	2	0	0.7942
4761598.407	3	bandit	2	0	0.4569
4761605.406	3	bandit	1	10	0.9662
4761612.406	3	bandit	1	0	0.6061
4761619.406	3	bandit	2	10	0.497
4761626.406	3	memory	2	0.25	2.8566
4761631.423	3	bandit	2	10	0.7403
4761638.423	3	memory	1	0.25	1.8633
4761647.439	3	bandit	2	10	0.5258
4761654.439	3	memory	1	0.25	2.2117
4761659.456	3	bandit	2	10	0.7594
4761666.456	3	memory	4	0.25	1.1957
4761671.472	3	bandit	2	10	0.4744
4761678.472	3	bandit	2	0	0.4293
4761685.472	3	bandit	2	0	0.5337
4761694.472	3	bandit	1	0	0.3591
4761702.472	3	bandit	3	0	0.3908
4761709.472	3	memory	1	0.25	1.4372
4761719.488	3	bandit	2	0	0.4588
4761726.489	3	memory	4	0.25	1.6814
4761731.505	3	bandit	3	10	0.9995
4761738.505	3	memory	4	0.25	1.2072
4761744.521	3	bandit	3	0	0.375
4761752.521	3	memory	3	-0.25	0.3752
4761757.538	3	bandit	3	0	1.5624
4761765.538	3	memory	1	0.25	2.1879
4761770.554	3	bandit	3	0	1.306
4761778.554	3	memory	1	0.25	2.3717
4761783.571	3	bandit	2	10	0.9698
4761790.571	3	memory	1	0.25	2.6906
4761795.587	3	bandit	2	10	1.3478
4761802.588	3	memory	1	0.25	1.9257
4761807.604	3	bandit	2	0	1.371
4761814.606	3	memory	2	0.25	2.8445
4761819.62	3	bandit	2	10	1.0905
4761826.624	3	memory	1	0.25	1.6356
4761831.637	3	bandit	2	0	0.6814
4761839.637	3	memory	4	-0.25	1.2475
4761846.67	3	bandit	2	10	0.504
4761853.671	3	memory	1	0.25	1.2924
4761858.686	3	bandit	2	0	0.5589
4761866.686	3	memory	1	0.25	1.2498
4761871.703	3	bandit	2	0	0.5887
4761879.703	3	memory	4	0.25	1.7248
4761885.719	3	bandit	3	10	0.9422
4761892.719	3	memory	1	0.25	1.264
4761898.736	3	bandit	3	10	0.6278
4761905.736	3	bandit	3	0	0.6111
4761912.736	3	memory	1	0.25	1.5047
4761917.752	3	bandit	2	0	1.1918
4761924.752	3	bandit	3	0	0.6205
4761933.752	3	bandit	1	10	0.4124
4761940.754	3	memory	2	0.25	2.5453
4761948.769	3	bandit	1	10	0.5759
4761955.769	3	bandit	1	0	0.7123
4761962.769	3	bandit	1	0	0.6723
4761969.768	3	memory	2	0.25	2.5777
4761975.785	3	bandit	3	0	1.0601
4761982.788	3	memory	1	0.25	1.3357
4761987.803	3	bandit	2	10	0.9854
4761997.803	3	memory	1	0.25	1.8286
4762003.818	3	bandit	2	0	0.8811
4762010.818	3	bandit	1	0	0.9485
4762019.818	3	bandit	3	0	0.4698
4762027.818	3	bandit	1	0	0.5573
4762034.819	3	memory	3	0.25	2.6897
4762039.834	3	bandit	1	10	0.9546
4762048.834	3	bandit	1	10	0.5071
4762055.834	3	bandit	1	10	1.1161
4762064.834	3	memory	2	0.25	2.2044
4762069.85	3	bandit	1	0	0.8981
4762078.85	3	bandit	1	10	0.412
4762086.853	3	bandit	1	10	0.5131
4762095.85	3	bandit	1	0	0.599
4762102.85	3	bandit	1	10	0.6578
4762109.85	3	bandit	1	0	0.6572
4762116.85	3	bandit	1	0	0.9663
4762123.854	3	memory	4	0.25	1.7588
4762128.866	3	bandit	3	10	0.3683
4762135.868	3	bandit	3	10	1.8459
4762142.866	3	bandit	3	10	0.953
4762149.867	3	bandit	3	10	0.752
4762156.866	3	bandit	3	0	0.5354
4762164.866	3	memory	2	0.25	1.5799
4762169.883	3	bandit	2	0	0.9956
4762177.882	3	bandit	1	0	0.3497
4762184.882	3	bandit	3	10	0.3908
4762191.885	3	memory	1	0.25	1.1659
4762196.901	3	bandit	3	0	0.4662
4762204.902	3	memory	1	0.25	1.659