onset	duration	type	choice	rwdval	RT
8276323.379	3	bandit	1	0	1.1755
8276330.366	3	bandit	2	0	1.3467
8276337.346	3	bandit	3	10	0.5314
8276344.331	3	bandit	3	0	0.499
8276351.314	3	bandit	1	0	2.2309
8276358.295	3	bandit	2	10	1.25
8276365.279	3	bandit	2	0	0.8535
8276374.262	3	bandit	3	0	0.7607
8276383.246	3	bandit	2	10	0.5564
8276391.228	3	bandit	2	0	0.6324
8276398.214	3	bandit	2	0	0.5452
8276405.197	3	bandit	3	10	0.7587
8276415.178	3	bandit	3	10	0.7467
8276422.163	3	bandit	3	10	0.5318
8276429.145	3	bandit	3	0	0.6242
8276436.128	3	bandit	3	10	0.4494
8276443.111	3	bandit	3	0	0.5172
8276451.094	3	bandit	3	10	0.5559
8276458.077	3	bandit	3	10	0.8663
8276465.064	3	bandit	3	0	1.0388
8276472.044	3	bandit	3	10	0.5778
8276480.031	3	bandit	3	10	0.6426
8276487.013	3	bandit	3	10	0.7912
8276493.994	3	bandit	3	10	1.6838
8276500.979	3	bandit	3	10	0.941
8276507.962	3	bandit	3	0	0.8662
8276514.96	3	bandit	3	10	0.757
8276522.948	3	bandit	3	10	0.6304
8276529.931	3	bandit	3	0	0.5486
8276536.91	3	bandit	3	10	0.4501
8276552.16	3	bandit	1	0	1.1333
8276559.146	3	bandit	2	0	0.563
8276566.128	3	bandit	3	0	0.6865
8276574.112	3	bandit	1	0	0.6101
8276581.093	3	bandit	2	10	0.8061
8276588.076	3	bandit	2	10	0.5381
8276595.059	3	bandit	2	0	0.8925
8276602.045	3	bandit	2	0	0.5704
8276611.026	3	bandit	2	10	0.4707
8276619.009	3	bandit	2	0	0.7796
8276625.992	3	bandit	2	0	0.6239
8276632.979	3	bandit	2	10	0.7331
8276639.962	3	bandit	2	0	0.5839
8276646.942	3	bandit	3	0	0.3907
8276653.93	3	bandit	3	0	0.3831
8276662.909	3	bandit	3	10	0.62
8276670.891	3	bandit	3	0	0.6391
8276677.875	3	bandit	3	0	0.6403
8276684.86	3	bandit	3	0	0.3416
8276691.841	3	bandit	3	0	0.3764
8276700.824	3	bandit	3	0	0.3351
8276708.808	3	bandit	1	10	0.4296
8276715.791	3	bandit	1	0	0.4783
8276722.774	3	bandit	1	10	0.4632
8276729.757	3	bandit	1	10	0.6228
8276736.745	3	bandit	1	0	0.7136
8276743.724	3	bandit	2	0	0.6573
8276750.707	3	bandit	3	0	0.3702
8276757.69	3	bandit	1	10	0.4038
8276764.674	3	bandit	1	0	0.88
8276778.857	3	bandit	1	0	1.1739
8276785.84	3	bandit	2	10	1.3767
8276793.823	3	bandit	2	10	0.6192
8276800.806	3	bandit	2	0	0.7774
8276810.79	3	bandit	3	0	0.6442
8276817.777	3	bandit	1	0	2.9291
8276827.756	3	bandit	2	0	0.6577
8276835.739	3	bandit	3	10	0.5242
8276843.723	3	bandit	3	0	0.5237
8276850.71	3	bandit	1	0	0.5784
8276857.692	3	bandit	2	0	0.5495
8276864.672	3	bandit	3	0	0.5115
8276872.656	3	bandit	1	0	0.4302
8276880.639	3	bandit	2	0	0.6919
8276887.622	3	bandit	3	10	0.7327
8276894.605	3	bandit	3	0	0.4753
8276901.588	3	bandit	1	0	0.3234
8276910.572	3	bandit	2	0	0.6725
8276917.555	3	bandit	3	10	0.7718
8276924.538	3	bandit	3	0	0.7974
8276931.521	3	bandit	3	10	1.045
8276939.507	3	bandit	1	0	0.4034
8276946.488	3	bandit	2	0	1.2773
8276955.471	3	bandit	3	10	0.6246
8276963.457	3	bandit	3	10	1.3959
8276970.442	3	bandit	3	10	1.5485
8276978.421	3	bandit	3	0	1.545
8276985.404	3	bandit	1	0	0.5508
8276993.392	3	bandit	2	10	0.6589
8277000.371	3	bandit	2	0	0.711
8277013.89	3	bandit	1	10	0.9603
8277023.875	3	bandit	1	0	0.7119
8277030.853	3	bandit	2	0	0.6339
8277038.837	3	bandit	3	0	0.2483
8277045.82	3	bandit	1	0	0.5091
8277053.803	3	bandit	2	10	0.8928
8277060.787	3	bandit	2	0	0.6102
8277068.773	3	bandit	3	0	0.8011
8277075.753	3	bandit	1	10	1.733
8277083.736	3	bandit	1	0	0.4044
8277090.719	3	bandit	1	10	0.6253
8277100.703	3	bandit	1	0	0.6183
8277107.686	3	bandit	1	10	1.4889
8277114.669	3	bandit	1	10	0.8801
8277121.652	3	bandit	1	0	0.9006
8277131.636	3	bandit	1	0	0.6375
8277139.636	3	bandit	2	0	0.5942
8277146.621	3	bandit	3	0	0.6108
8277154.602	3	bandit	1	0	0.485
8277166.589	3	bandit	2	0	0.6311
8277173.568	3	bandit	3	0	2.5253
8277180.552	3	bandit	1	10	1.049
8277187.535	3	bandit	1	0	0.5453
8277195.521	3	bandit	1	10	0.4293
8277202.501	3	bandit	1	0	0.687
8277210.485	3	bandit	1	10	0.457
8277217.484	3	bandit	1	10	0.5184
8277224.468	3	bandit	1	0	0.9264
8277231.451	3	bandit	2	0	0.9339
8277238.434	3	bandit	3	0	0.7728
8277255.167	3	bandit	1	10	1.1922
8277263.15	3	bandit	1	0	0.6635
8277271.134	3	bandit	2	0	0.5448
8277278.117	3	bandit	2	0	0.5381
8277286.117	3	bandit	3	10	0.5516
8277293.1	3	bandit	3	0	1.2804
8277300.083	3	bandit	1	10	0.9327
8277307.067	3	bandit	1	0	0.7009
8277314.05	3	bandit	1	0	1.8463
8277323.037	3	bandit	3	0	1.2559
8277332.016	3	bandit	3	0	0.685
8277339.999	3	bandit	3	0	0.4832
8277346.983	3	bandit	3	0	1.1897
8277353.966	3	bandit	3	0	0.3967
8277360.949	3	bandit	1	10	0.3771
8277367.932	3	bandit	1	10	0.3901
8277376.916	3	bandit	1	10	0.6438
8277384.899	3	bandit	1	10	0.5783
8277391.882	3	bandit	1	0	0.8484
8277398.882	3	bandit	2	10	0.5928
8277405.865	3	bandit	2	10	1.7406
8277412.865	3	bandit	2	10	0.6933
8277420.865	3	bandit	2	10	0.7178
8277428.848	3	bandit	3	0	1.668
8277435.832	3	bandit	3	0	1.1105
8277443.815	3	bandit	3	0	0.3631
8277450.798	3	bandit	1	0	0.7754
8277457.782	3	bandit	2	10	0.4422
8277465.781	3	bandit	2	0	0.4918
8277472.764	3	bandit	2	0	2.349
8277488.098	3	bandit	1	10	1.0075
8277495.098	3	bandit	1	0	0.5032
8277502.081	3	bandit	2	0	0.4648
8277509.081	3	bandit	2	0	0.6605
8277516.081	3	bandit	3	0	0.51
8277525.064	3	bandit	3	10	0.383
8277533.047	3	bandit	3	10	0.4782
8277540.047	3	bandit	3	10	0.6401
8277548.047	3	bandit	3	0	0.5855
8277556.035	3	bandit	1	0	0.5382
8277563.013	3	bandit	1	10	0.6171
8277570.013	3	bandit	1	0	0.5956
8277578.013	3	bandit	3	0	0.2967
8277584.996	3	bandit	3	0	0.6855
8277591.996	3	bandit	3	10	0.9952
8277598.996	3	bandit	3	10	1.5447
8277605.996	3	bandit	3	10	0.6994
8277613.996	3	bandit	3	0	0.611
8277620.996	3	bandit	3	10	0.5106
8277627.996	3	bandit	3	10	0.5364
8277634.996	3	bandit	3	10	0.4756
8277641.996	3	bandit	3	10	0.5648
8277648.996	3	bandit	3	10	0.6571
8277655.996	3	bandit	3	10	0.6762
8277664.995	3	bandit	3	10	0.6457
8277671.995	3	bandit	3	10	0.6104
8277678.995	3	bandit	3	10	0.5229
8277685.995	3	bandit	3	10	0.5641
8277692.995	3	bandit	3	10	0.6922
8277699.979	3	bandit	3	10	0.795