onset	duration	type	choice	rwdval	RT
2065290.468	3	bandit	1	0	0.8458
2065297.467	3	memory	1	0.25	2.0837
2065302.483	3	bandit	2	10	0.6555
2065309.467	3	memory	3	-0.25	2.9919
2065314.466	3	bandit	3	10	0.7883
2065321.449	3	memory	1	0.25	1.3238
2065326.449	3	bandit	2	0	1.3025
2065333.437	3	bandit	3	0	0.7504
2065341.433	3	bandit	2	10	0.3913
2065348.416	3	bandit	2	0	0.3301
2065355.399	3	bandit	3	10	0.3025
2065362.399	3	memory	4	0.25	1.9648
2065369.399	3	bandit	3	0	0.7631
2065376.382	3	memory	2	0.25	2.2366
2065383.382	3	bandit	1	0	1.1205
2065390.366	3	memory	2	0.25	1.7213
2065395.365	3	bandit	2	0	0.5384
2065403.365	3	memory	3	0.25	2.0256
2065409.365	3	bandit	3	10	0.431
2065416.348	3	bandit	3	0	0.7069
2065423.332	3	memory	3	-0.25	1.775
2065429.348	3	bandit	3	10	0.3839
2065436.331	3	bandit	3	0	0.6603
2065443.315	3	bandit	3	0	0.62
2065450.298	3	bandit	2	0	0.4251
2065458.298	3	memory	2	0.25	1.9043
2065464.298	3	bandit	1	0	0.6734
2065471.281	3	memory	1	0.25	1.3965
2065478.281	3	bandit	2	0	0.4247
2065485.264	3	bandit	1	10	0.3998
2065493.264	3	bandit	1	0	0.4582
2065500.252	3	bandit	1	0	0.4254
2065507.231	3	memory	1	0.25	1.0995
2065513.247	3	bandit	1	0	0.4711
2065522.247	3	memory	3	-0.25	1.6811
2065527.247	3	bandit	1	0	0.7757
2065534.23	3	memory	1	0.25	1.382
2065541.23	3	bandit	3	0	0.3646
2065548.23	3	memory	2	0.25	1.7686
2065553.23	3	bandit	2	10	0.5444
2065560.213	3	bandit	2	10	0.5378
2065567.196	3	bandit	2	10	0.5118
2065574.18	3	bandit	2	0	0.5453
2065581.163	3	bandit	2	10	0.3302
2065588.163	3	memory	3	0.25	1.9093
2065593.163	3	bandit	2	0	0.4795
2065600.163	3	memory	1	0.25	2.1014
2065605.163	3	bandit	2	10	0.4247
2065612.146	3	memory	1	0.25	1.9576
2065618.146	3	bandit	2	0	0.3856
2065626.146	3	memory	1	0.25	0.9304
2065631.145	3	bandit	2	10	0.4933
2065638.146	3	memory	4	0.25	1.4586
2065643.145	3	bandit	2	10	0.4339
2065650.145	3	memory	4	0.25	1.7742
2065656.162	3	bandit	2	10	0.5931
2065663.162	3	memory	4	-0.25	1.4925
2065668.162	3	bandit	2	0	0.7628
2065676.162	3	memory	2	0.25	1.6039
2065681.162	3	bandit	2	10	0.3645
2065688.145	3	bandit	2	0	0.762
2065695.145	3	memory	3	-0.25	1.9994
2065700.145	3	bandit	2	10	0.3867
2065708.145	3	bandit	2	10	0.6684
2065715.145	3	memory	1	0.25	1.1937
2065721.161	3	bandit	2	0	0.3974
2065728.145	3	memory	1	0.25	1.2418
2065733.144	3	bandit	2	0	0.4715
2065740.127	3	bandit	2	0	0.6194
2065748.127	3	memory	2	0.25	1.6064
2065753.127	3	bandit	3	10	0.412
2065761.127	3	memory	1	0.25	1.0515
2065767.127	3	bandit	3	0	0.4385
2065775.127	3	memory	2	-0.25	1.9257
2065780.144	3	bandit	1	0	0.5716
2065791.144	3	memory	1	0.25	1.2486
2065797.16	3	bandit	3	10	0.6051
2065804.16	3	memory	1	0.25	1.1204
2065809.16	3	bandit	3	0	0.4243
2065817.16	3	memory	2	0.25	1.4386
2065822.16	3	bandit	1	10	0.4712
2065829.143	3	bandit	1	0	0.8709
2065839.143	3	memory	3	0.25	1.6612
2065845.16	3	bandit	1	10	0.4846
2065853.159	3	memory	1	0.25	0.9043
2065863.159	3	bandit	1	10	0.3915
2065870.159	3	memory	2	-0.25	2.968
2065878.159	3	bandit	1	0	0.4442
2065887.159	3	bandit	1	10	0.7288
2065894.159	3	memory	2	0.25	1.1404
2065902.159	3	bandit	1	0	0.3847
2065909.159	3	memory	3	-0.25	1.3773
2065917.175	3	bandit	1	0	0.4108
2065926.175	3	memory	2	0.25	2.3092
2065931.176	3	bandit	1	0	0.8629
2065938.158	3	bandit	2	0	0.9435
2065945.142	3	bandit	2	0	0.397
2065952.125	3	bandit	3	10	0.3097
2065959.109	3	bandit	3	10	0.4369
2065966.091	3	bandit	3	10	0.5602
2065974.091	3	bandit	3	0	0.4385
2065981.091	3	memory	1	0.25	1.2074
2065986.092	3	bandit	3	0	0.3502
2065993.074	3	bandit	3	10	0.5866
2066000.057	3	bandit	3	10	0.5849
2066007.041	3	bandit	3	10	0.3581
2066014.024	3	bandit	3	10	0.4578
2066022.024	3	memory	1	0.25	0.9992
2066027.041	3	bandit	3	0	0.6871
2066035.04	3	bandit	3	10	0.5089
2066042.024	3	bandit	3	10	0.6135
2066049.007	3	bandit	3	10	0.6607
2066056.007	3	bandit	3	0	0.5656
2066063.007	3	bandit	3	10	0.3968
2066070.007	3	memory	1	0.25	1.0335
2066075.023	3	bandit	3	10	0.4048
2066083.023	3	memory	1	0.25	0.9372
2066089.04	3	bandit	3	10	0.5867
2066096.04	3	memory	1	0.25	0.9843
2066102.056	3	bandit	3	10	0.3911
2066110.056	3	bandit	3	0	0.6468
2066124.556	3	bandit	3	0	0.5593
2066131.556	3	bandit	3	10	0.3903
2066138.556	3	memory	1	0.25	0.9638
2066144.572	3	bandit	3	0	0.2957
2066151.572	3	memory	3	-0.25	1.6326
2066156.589	3	bandit	3	0	0.3096
2066163.589	3	bandit	3	0	1.2213
2066170.589	3	bandit	1	0	0.3971
2066177.589	3	bandit	2	10	0.289
2066186.589	3	memory	1	0.25	0.8705
2066192.589	3	bandit	2	10	0.3845
2066200.588	3	memory	4	0.25	1.5914
2066205.605	3	bandit	2	0	0.4457
2066212.605	3	memory	1	0.25	0.9632
2066217.621	3	bandit	2	0	0.8553
2066224.621	3	bandit	1	0	0.9166
2066231.621	3	bandit	3	0	0.4378
2066238.621	3	bandit	2	0	0.3173
2066245.621	3	memory	2	0.25	2.1747
2066250.638	3	bandit	2	10	0.3032
2066258.638	3	memory	1	0.25	1.2086
2066263.654	3	bandit	1	10	0.7084
2066270.654	3	memory	2	0.25	1.7749
2066277.654	3	bandit	1	0	0.3295
2066287.654	3	bandit	1	0	0.4327
2066294.654	3	memory	1	0.25	0.9196
2066303.67	3	bandit	2	0	0.4047
2066310.67	3	bandit	3	10	0.4467
2066317.67	3	bandit	3	10	1.1274
2066324.67	3	bandit	3	0	0.4786
2066332.67	3	bandit	3	0	0.4381
2066339.67	3	memory	1	0.25	0.9375
2066344.686	3	bandit	1	10	0.5327
2066351.687	3	bandit	3	0	0.8693
2066360.686	3	bandit	1	0	0.3574
2066367.686	3	bandit	1	10	0.6407
2066377.686	3	bandit	1	10	0.4446
2066384.686	3	bandit	1	10	0.505
2066392.687	3	memory	3	0.25	2.0273
2066397.702	3	bandit	1	10	0.3572
2066404.702	3	memory	2	0.25	1.2969
2066409.719	3	bandit	1	10	0.3717
2066416.719	3	bandit	1	10	0.5747
2066423.719	3	memory	1	0.25	1.5985
2066429.735	3	bandit	1	0	0.5799
2066436.735	3	memory	3	-0.25	1.4713
2066442.752	3	bandit	1	0	0.3724
2066451.752	3	bandit	1	10	0.5985
2066459.752	3	bandit	1	10	0.5652
2066467.752	3	memory	1	0.25	0.8768
2066473.768	3	bandit	1	0	0.6349
2066480.768	3	memory	1	0.25	0.9864
2066486.785	3	bandit	3	10	0.3635
2066494.785	3	bandit	3	0	0.6197
2066501.785	3	bandit	2	0	0.5182
2066508.784	3	bandit	3	10	0.6475
2066515.784	3	memory	1	0.25	1.1326
2066520.801	3	bandit	3	0	0.5857
2066527.801	3	memory	2	0.25	1.3223