onset	duration	type	choice	rwdval	RT
8389521.614	3	bandit	1	0	1.047
8389528.614	3	memory	1	0.25	2.891
8389533.63	3	bandit	2	0	1.4144
8389544.63	3	bandit	3	0	2.1135
8389552.63	3	bandit	1	10	1.0611
8389560.613	3	bandit	1	10	0.7035
8389567.613	3	memory	1	0.25	2.0312
8389572.63	3	bandit	2	10	1.0958
8389581.629	3	memory	1	0.25	1.947
8389586.646	3	bandit	1	0	1.4747
8389593.646	3	bandit	3	10	1.4145
8389600.646	3	bandit	3	0	1.1456
8389607.63	3	bandit	1	10	0.3742
8389616.612	3	bandit	2	10	0.9441
8389623.612	3	memory	4	0.25	1.9629
8389629.629	3	bandit	2	0	1.0197
8389636.629	3	memory	1	-0.25	1.4739
8389641.662	3	bandit	1	0	0.6091
8389650.662	3	memory	4	0.25	1.185
8389655.679	3	bandit	2	0	1.0522
8389663.678	3	memory	4	0.25	1.1736
8389668.695	3	bandit	3	0	0.7776
8389675.695	3	memory	1	0.25	1.3301
8389680.712	3	bandit	1	10	0.6282
8389687.712	3	memory	4	0.25	1.468
8389692.728	3	bandit	2	0	0.8046
8389699.728	3	memory	4	0.25	1.0477
8389705.745	3	bandit	3	0	0.6288
8389716.744	3	memory	1	0.25	1.3076
8389722.744	3	bandit	1	0	0.7361
8389729.744	3	memory	4	-0.25	1.1731
8389734.761	3	bandit	2	0	1.107
8389741.761	3	memory	1	0.25	1.3337
8389747.777	3	bandit	1	10	0.763
8389754.777	3	bandit	2	10	0.8575
8389762.777	3	bandit	1	10	0.6499
8389769.777	3	bandit	2	10	1.3329
8389776.777	3	bandit	2	10	0.7557
8389783.777	3	memory	1	0.25	1.1865
8389788.793	3	bandit	1	0	0.5817
8389796.793	3	memory	1	0.25	1.1596
8389801.81	3	bandit	2	0	0.9713
8389808.81	3	bandit	2	0	1.4016
8389816.81	3	bandit	1	0	0.6977
8389823.81	3	bandit	2	0	0.5151
8389830.81	3	memory	1	0.25	1.0585
8389835.826	3	bandit	2	10	0.8836
8389842.826	3	memory	4	-0.25	1.4819
8389848.843	3	bandit	1	0	0.6451
8389856.843	3	memory	1	0.25	1.4814
8389861.859	3	bandit	2	10	0.6833
8389868.859	3	memory	1	0.25	1.0527
8389873.876	3	bandit	2	10	0.9335
8389880.876	3	bandit	2	10	0.9846
8389887.876	3	bandit	2	0	1.0525
8389895.859	3	bandit	1	10	0.5232
8389903.859	3	bandit	1	0	0.6974
8389912.859	3	memory	1	0.25	1.1254
8389917.875	3	bandit	2	0	0.7756
8389926.875	3	memory	1	0.25	1.0738
8389932.892	3	bandit	2	0	0.69
8389940.892	3	bandit	1	10	0.5836
8389947.891	3	bandit	1	10	0.725
8389954.891	3	bandit	1	0	0.7791
8389963.892	3	memory	1	0.25	1.2792
8389968.908	3	bandit	3	0	1.0721
8389975.924	3	bandit	2	0	0.3755
8389982.924	3	bandit	1	0	0.4688
8389990.924	3	bandit	1	0	0.4809
8389997.924	3	memory	1	0.25	1.2924
8390002.941	3	bandit	1	0	0.7905
8390009.941	3	bandit	2	10	0.5628
8390016.941	3	bandit	2	0	0.4409
8390023.941	3	bandit	3	10	0.9468
8390030.94	3	memory	1	0.25	1.025
8390035.957	3	bandit	2	0	1.1529
8390043.957	3	bandit	2	10	1.0184
8390050.957	3	bandit	3	10	1.2263
8390058.957	3	memory	1	0.25	1.426
8390063.973	3	bandit	2	0	0.7449
8390070.973	3	bandit	3	10	1.2406
8390077.973	3	bandit	3	10	1.0714
8390084.973	3	memory	4	-0.25	1.6011
8390090.99	3	bandit	3	0	1.3618
8390097.989	3	memory	1	0.25	1.1185
8390103.006	3	bandit	2	10	0.8508
8390110.006	3	bandit	2	0	0.6098
8390117.006	3	bandit	2	0	0.5212
8390125.006	3	bandit	1	0	0.5753
8390132.006	3	memory	1	0.25	1.1529
8390137.022	3	bandit	3	10	1.6698
8390144.022	3	bandit	3	0	0.6081
8390151.022	3	bandit	3	10	0.4883
8390158.022	3	bandit	3	0	0.8543
8390165.022	3	bandit	2	10	0.7045
8390172.022	3	memory	1	0.25	0.9038
8390177.038	3	bandit	2	10	0.7434
8390184.038	3	memory	1	0.25	0.9921
8390189.055	3	bandit	2	0	0.9645
8390197.055	3	bandit	2	10	0.8318
8390204.055	3	bandit	3	0	1.2604
8390211.055	3	bandit	2	0	0.6964
8390218.055	3	memory	1	0.25	1.1525
8390225.071	3	bandit	1	0	1.334
8390232.071	3	bandit	2	10	0.5891
8390239.071	3	bandit	2	10	0.73
8390246.071	3	memory	1	0.25	1.0469
8390251.088	3	bandit	2	0	1.0869
8390260.09	3	memory	1	0.25	1.3203
8390265.104	3	bandit	2	0	0.6827
8390272.104	3	bandit	2	0	0.4955
8390279.104	3	memory	1	-0.25	1.1053
8390284.12	3	bandit	3	0	0.8368
8390294.12	3	memory	1	0.25	1.2941
8390299.137	3	bandit	1	10	0.6032
8390307.137	3	bandit	1	0	0.6554
8390314.137	3	memory	1	0.25	1.1328
8390319.153	3	bandit	1	0	0.6773
8390327.154	3	memory	1	0.25	1.4201
8390332.17	3	bandit	3	10	0.9251
8390339.17	3	memory	1	0.25	1.2695
8390345.186	3	bandit	1	0	0.9796
8390353.186	3	bandit	2	0	0.5232
8390361.186	3	bandit	3	10	0.7239
8390369.187	3	memory	1	0.25	1.1932
8390378.203	3	bandit	3	0	1.1941
8390385.202	3	bandit	2	10	0.7926
8390392.202	3	bandit	2	10	0.5901
8390399.202	3	bandit	2	10	1.221
8390407.202	3	memory	1	0.25	1.012
8390413.219	3	bandit	2	0	1.0719
8390420.219	3	memory	1	0.25	1.3133
8390425.235	3	bandit	1	0	0.7241
8390432.236	3	memory	1	-0.25	1.215
8390437.252	3	bandit	2	10	0.6431
8390444.252	3	memory	1	0.25	0.9728
8390449.268	3	bandit	2	10	1.0767
8390457.271	3	memory	1	0.25	1.0321
8390465.285	3	bandit	2	10	0.7903
8390473.285	3	bandit	2	10	0.4943
8390480.285	3	bandit	2	0	0.8385
8390489.284	3	memory	1	0.25	1.2328
8390494.301	3	bandit	1	0	0.5952
8390501.302	3	memory	4	-0.25	1.4743
8390506.318	3	bandit	1	0	0.7107
8390514.317	3	bandit	2	10	0.5021
8390524.319	3	bandit	2	10	0.7985
8390531.318	3	memory	3	0.25	2.2533
8390537.334	3	bandit	2	10	1.0397
8390544.334	3	bandit	3	0	2.8915
8390551.334	3	bandit	2	10	0.7109
8390558.334	3	memory	1	0.25	1.1111
8390564.35	3	bandit	2	10	0.77
8390571.351	3	memory	1	0.25	1.0919
8390576.367	3	bandit	2	0	1.6767
8390583.368	3	memory	3	-0.25	2.0182
8390588.384	3	bandit	2	0	1.3605
8390595.385	3	memory	1	0.25	0.9647
8390600.4	3	bandit	1	0	0.9038
8390607.402	3	memory	1	0.25	1.0919
8390613.416	3	bandit	2	10	0.5958
8390620.418	3	memory	1	0.25	1.14
8390625.433	3	bandit	2	10	0.7567
8390636.433	3	memory	1	0.25	1.116
8390641.449	3	bandit	2	0	0.8429
8390648.449	3	bandit	3	0	0.9589
8390655.449	3	bandit	1	10	0.643
8390662.449	3	memory	1	0.25	1.1389
8390669.466	3	bandit	1	10	0.819
8390676.467	3	memory	1	0.25	1.0121
8390681.482	3	bandit	1	0	0.6691
8390688.483	3	memory	1	0.25	1.2873
8390693.499	3	bandit	1	10	0.7154
8390700.498	3	bandit	1	0	0.6229
8390707.498	3	bandit	1	10	0.9987
8390714.5	3	memory	1	0.25	1.0997
8390719.515	3	bandit	2	10	1.9163
8390726.518	3	memory	1	0.25	1.2468
8390731.531	3	bandit	1	0	0.6428
8390738.534	3	memory	3	0.25	2.1922