onset	duration	type	choice	rwdval	RT
3439640.868	3	bandit	2	10	2.0983
3439647.868	3	memory	3	0.25	2.7309
3439652.885	3	bandit	1	0	1.3837
3439662.885	3	bandit	2	0	1.2178
3439669.884	3	memory	1	0.25	2.7502
3439674.901	3	bandit	2	10	2.4008
3439681.901	3	memory	1	0.25	1.3353
3439687.918	3	bandit	3	0	2.0274
3439697.917	3	bandit	2	10	0.9258
3439704.901	3	bandit	2	0	1.6465
3439712.901	3	bandit	2	0	1.8549
3439721.9	3	bandit	1	0	0.6088
3439728.9	3	memory	1	-0.25	1.4112
3439733.934	3	bandit	2	10	1.583
3439740.934	3	memory	1	0.25	1.3081
3439745.95	3	bandit	2	10	1.9289
3439752.95	3	memory	1	0.25	1.1321
3439757.95	3	bandit	2	0	1.0316
3439764.951	3	memory	1	0.25	0.978
3439769.95	3	bandit	1	10	0.9278
3439778.933	3	bandit	1	10	1.4801
3439786.916	3	bandit	1	0	0.92
3439793.916	3	bandit	3	0	1.8084
3439802.916	3	bandit	1	0	1.3594
3439809.916	3	memory	1	0.25	1.1616
3439815.933	3	bandit	2	10	0.7218
3439823.932	3	memory	1	0.25	1.4573
3439829.949	3	bandit	2	10	0.7131
3439837.932	3	bandit	2	0	1.975
3439844.932	3	bandit	1	0	0.6538
3439852.932	3	bandit	2	0	0.398
3439859.932	3	memory	3	-0.25	1.9316
3439864.949	3	bandit	2	10	0.9122
3439871.949	3	memory	1	0.25	0.9934
3439878.965	3	bandit	2	10	1.1629
3439886.965	3	memory	1	0.25	1.4212
3439892.982	3	bandit	2	10	1.0081
3439899.984	3	memory	3	0.25	2.9611
3439905.998	3	bandit	2	0	0.8564
3439912.998	3	memory	1	0.25	1.1188
3439917.998	3	bandit	2	0	1.8173
3439924.981	3	bandit	2	0	1.2238
3439932.981	3	bandit	1	0	0.3133
3439941.981	3	memory	1	0.25	1.1089
3439946.981	3	bandit	3	10	0.8033
3439954.981	3	memory	1	0.25	1.3908
3439959.981	3	bandit	3	10	1.1228
3439966.964	3	bandit	3	10	1.4663
3439973.947	3	bandit	3	0	1.2826
3439983.947	3	bandit	2	0	1.0589
3439990.947	3	memory	1	0.25	1.1839
3439998.964	3	bandit	2	10	1.858
3440005.963	3	memory	1	0.25	1.0564
3440011.98	3	bandit	2	0	0.9413
3440018.98	3	memory	1	0.25	1.7335
3440024.997	3	bandit	2	0	1.0472
3440032.997	3	memory	3	-0.25	1.5676
3440038.013	3	bandit	2	10	0.942
3440045.013	3	bandit	2	0	1.3959
3440053.013	3	memory	1	0.25	1.2141
3440059.029	3	bandit	2	0	0.6924
3440066.03	3	bandit	1	0	0.4632
3440073.029	3	bandit	1	10	1.6472
3440081.029	3	bandit	1	0	0.4796
3440088.029	3	bandit	3	10	0.6852
3440096.029	3	bandit	3	10	0.8581
3440104.03	3	memory	3	0.25	1.9047
3440109.029	3	bandit	3	0	1.1455
3440116.029	3	memory	3	0.25	1.725
3440121.045	3	bandit	2	0	0.6845
3440128.029	3	bandit	1	0	0.9804
3440136.029	3	memory	1	0.25	1.2608
3440141.045	3	bandit	3	0	0.803
3440148.045	3	bandit	3	0	0.655
3440155.045	3	memory	1	0.25	1.0651
3440160.061	3	bandit	2	0	0.6872
3440168.061	3	memory	1	0.25	1.1561
3440173.078	3	bandit	2	0	0.5994
3440180.08	3	memory	1	0.25	1.2299
3440186.095	3	bandit	2	0	0.7137
3440194.094	3	bandit	1	10	0.465
3440201.094	3	bandit	1	10	0.8508
3440208.094	3	bandit	1	10	1.4711
3440215.094	3	memory	1	0.25	1.2999
3440220.111	3	bandit	1	10	0.6986
3440230.111	3	bandit	1	0	0.7669
3440237.111	3	memory	1	0.25	1.1376
3440242.127	3	bandit	3	10	1.0804
3440250.129	3	bandit	3	0	0.9795
3440258.127	3	bandit	2	10	1.522
3440265.127	3	memory	1	0.25	1.2231
3440270.143	3	bandit	2	10	0.7814
3440278.146	3	bandit	2	0	0.7238
3440285.147	3	bandit	3	0	0.51
3440292.143	3	bandit	1	0	0.5466
3440300.144	3	memory	1	0.25	1.2549
3440305.16	3	bandit	1	0	0.4542
3440312.16	3	memory	1	0.25	1.0401
3440317.176	3	bandit	2	0	0.5935
3440324.176	3	memory	1	0.25	1.777
3440329.193	3	bandit	2	0	0.542
3440336.193	3	memory	3	0.25	1.255
3440341.209	3	bandit	2	0	0.9871
3440348.209	3	bandit	3	0	0.7299
3440355.209	3	memory	1	0.25	1.1849
3440360.226	3	bandit	1	0	1.451
3440368.226	3	bandit	2	0	0.2652
3440375.227	3	bandit	1	0	0.5094
3440382.225	3	bandit	3	10	0.6891
3440390.228	3	memory	2	-0.25	1.9458
3440395.243	3	bandit	3	10	0.64
3440403.242	3	memory	1	0.25	1.1013
3440409.258	3	bandit	3	10	0.7808
3440416.258	3	bandit	3	10	1.2297
3440423.258	3	bandit	3	0	1.1704
3440431.259	3	bandit	1	10	0.8512
3440438.258	3	memory	1	0.25	1.0861
3440444.275	3	bandit	1	10	0.4853
3440451.274	3	memory	1	0.25	0.9886
3440456.291	3	bandit	1	10	1.4357
3440463.291	3	bandit	1	10	0.7376
3440470.291	3	bandit	1	10	1.4506
3440478.292	3	bandit	1	10	0.4784
3440485.307	3	memory	1	0.25	1.2769
3440490.326	3	bandit	1	0	0.6759
3440502.324	3	bandit	3	0	1.1298
3440509.324	3	memory	1	0.25	1.1177
3440516.34	3	bandit	2	0	0.5474
3440523.341	3	bandit	2	0	0.4638
3440530.344	3	bandit	1	0	0.3434
3440537.344	3	memory	1	0.25	0.9933
3440543.357	3	bandit	3	0	0.6542
3440551.36	3	memory	1	0.25	1.1271
3440556.374	3	bandit	2	10	0.9106
3440563.373	3	memory	1	0.25	1.0783
3440568.39	3	bandit	2	0	0.6247
3440579.393	3	memory	1	0.25	0.7363
3440584.406	3	bandit	2	0	0.9507
3440591.406	3	bandit	1	0	0.4856
3440598.406	3	memory	3	-0.25	1.3736
3440603.423	3	bandit	2	0	0.6185
3440611.424	3	memory	3	-0.25	2.0372
3440616.439	3	bandit	2	10	1.0018
3440623.439	3	bandit	2	10	0.9487
3440630.439	3	memory	1	0.25	1.1468
3440635.458	3	bandit	2	0	1.0923
3440642.458	3	bandit	3	10	0.806
3440650.457	3	bandit	3	0	0.7578
3440657.455	3	memory	3	0.25	2.0829
3440663.472	3	bandit	1	10	0.8143
3440670.472	3	bandit	1	0	0.6669
3440677.472	3	bandit	2	10	0.7054
3440684.474	3	memory	1	0.25	1.5564
3440689.488	3	bandit	2	0	0.9582
3440696.488	3	bandit	2	0	1.6023
3440703.488	3	bandit	3	0	0.5692
3440710.492	3	bandit	1	10	0.6074
3440717.488	3	memory	1	0.25	1.2218
3440722.504	3	bandit	1	0	1.1093
3440730.505	3	bandit	2	10	0.5174
3440738.506	3	bandit	2	0	0.7456
3440745.504	3	bandit	1	10	0.5534
3440752.504	3	memory	4	0.25	1.3972
3440757.521	3	bandit	2	0	2.1722
3440766.524	3	memory	1	0.25	1.0473
3440771.537	3	bandit	1	0	0.5632
3440778.538	3	memory	1	0.25	1.1856
3440784.554	3	bandit	3	0	0.6156
3440792.553	3	memory	1	0.25	0.9039
3440797.574	3	bandit	1	0	0.6169
3440806.573	3	memory	1	0.25	0.7602
3440812.587	3	bandit	1	0	0.5865
3440819.586	3	memory	1	0.25	0.9649
3440826.603	3	bandit	2	0	0.7222
3440834.603	3	memory	1	0.25	1.1573
3440840.62	3	bandit	1	10	0.7001
3440847.619	3	bandit	1	0	0.8421
3440854.619	3	memory	4	0.25	1.2837
3440860.636	3	bandit	3	10	0.7893
3440867.636	3	memory	2	0.25	2.9102