onset	duration	type	choice	rwdval	RT
1015388.626	3	bandit	1	0	1.1866
1015396.607	3	bandit	3	0	1.2384
1015405.591	3	bandit	2	0	1.2595
1015413.574	3	bandit	1	0	1.2584
1015420.558	3	bandit	1	10	1.2041
1015427.539	3	bandit	1	0	1.1731
1015434.524	3	bandit	2	0	0.6358
1015441.506	3	bandit	1	0	1.4328
1015448.489	3	bandit	3	0	1.0162
1015455.474	3	bandit	3	10	1.0654
1015462.456	3	bandit	1	0	1.4536
1015469.44	3	bandit	3	0	0.6478
1015477.423	3	bandit	1	10	0.5283
1015484.405	3	bandit	1	10	1.131
1015495.389	3	bandit	1	0	1.586
1015503.371	3	bandit	2	0	1.1655
1015511.355	3	bandit	3	10	0.9828
1015518.339	3	bandit	3	0	1.3597
1015525.323	3	bandit	2	0	1.2272
1015533.305	3	bandit	1	0	1.0374
1015541.289	3	bandit	3	0	1.4132
1015550.272	3	bandit	1	10	1.0848
1015557.255	3	bandit	1	10	1.2406
1015564.239	3	bandit	1	0	1.4735
1015573.224	3	bandit	2	0	1.5066
1015580.206	3	bandit	3	0	1.0307
1015587.188	3	bandit	1	10	0.6353
1015594.171	3	bandit	1	10	1.1648
1015601.156	3	bandit	1	10	1.4076
1015611.141	3	bandit	1	0	1.7295
1015625.736	3	bandit	2	0	1.5265
1015632.721	3	bandit	1	0	1.4803
1015640.706	3	bandit	3	0	0.5036
1015649.688	3	bandit	1	0	0.5691
1015656.671	3	bandit	2	0	0.7722
1015663.655	3	bandit	2	0	0.7448
1015670.638	3	bandit	1	0	0.8827
1015677.62	3	bandit	3	10	0.7706
1015684.604	3	bandit	3	0	1.0627
1015694.589	3	bandit	2	0	1.4735
1015701.57	3	bandit	1	10	1.3687
1015708.553	3	bandit	1	0	0.9974
1015716.538	3	bandit	3	10	0.8521
1015723.521	3	bandit	3	10	1.2851
1015730.504	3	bandit	3	0	1.1851
1015737.487	3	bandit	3	10	1.3602
1015744.471	3	bandit	1	0	1.546
1015753.455	3	bandit	3	0	0.8166
1015763.437	3	bandit	3	10	0.6969
1015770.42	3	bandit	3	10	1.2521
1015777.404	3	bandit	3	10	1.5949
1015784.387	3	bandit	3	10	1.6676
1015791.37	3	bandit	3	10	1.7769
1015798.353	3	bandit	3	0	1.6142
1015805.336	3	bandit	3	10	0.8424
1015812.322	3	bandit	3	0	1.2389
1015819.304	3	bandit	2	0	1.0509
1015826.288	3	bandit	1	0	0.5756
1015833.27	3	bandit	3	10	0.5354
1015840.254	3	bandit	3	0	1.003
1015854.517	3	bandit	1	0	1.3321
1015862.503	3	bandit	2	0	0.6241
1015869.487	3	bandit	2	10	0.6076
1015876.468	3	bandit	2	0	1.0062
1015883.452	3	bandit	3	10	0.8095
1015890.436	3	bandit	3	0	1.0576
1015897.419	3	bandit	2	0	1.0591
1015904.402	3	bandit	1	10	0.4896
1015911.386	3	bandit	1	10	1.0573
1015918.368	3	bandit	1	0	1.143
1015925.353	3	bandit	3	10	0.5961
1015932.336	3	bandit	3	0	1.1844
1015939.318	3	bandit	2	0	1.7235
1015950.299	3	bandit	2	0	0.6278
1015957.285	3	bandit	1	0	0.9161
1015964.267	3	bandit	2	10	0.6904
1015971.252	3	bandit	2	10	1.0183
1015979.233	3	bandit	2	10	0.7699
1015986.218	3	bandit	2	0	2.5128
1015993.203	3	bandit	1	10	1.6427
1016001.182	3	bandit	1	10	0.6088
1016008.167	3	bandit	1	10	1.7375
1016018.152	3	bandit	1	0	1.0707
1016026.131	3	bandit	2	0	0.3862
1016033.118	3	bandit	1	10	0.4948
1016041.102	3	bandit	1	0	0.9168
1016048.086	3	bandit	3	0	0.8238
1016056.068	3	bandit	2	0	0.743
1016063.047	3	bandit	2	0	0.708
1016070.035	3	bandit	1	10	0.628
1016083.314	3	bandit	1	10	1.2991
1016090.301	3	bandit	1	10	0.9296
1016098.285	3	bandit	1	10	1.2912
1016105.267	3	bandit	1	10	0.9642
1016113.251	3	bandit	1	0	1.3306
1016120.23	3	bandit	1	0	0.9844
1016127.217	3	bandit	1	0	0.9695
1016134.2	3	bandit	2	0	0.7491
1016142.184	3	bandit	2	0	0.6814
1016149.168	3	bandit	1	0	0.4674
1016156.146	3	bandit	3	0	0.5626
1016163.13	3	bandit	1	10	0.4067
1016171.113	3	bandit	1	0	0.8978
1016178.096	3	bandit	2	0	0.8424
1016188.081	3	bandit	1	0	1.0039
1016195.062	3	bandit	3	0	0.5342
1016204.046	3	bandit	1	0	0.4271
1016211.034	3	bandit	3	0	1.0314
1016218.015	3	bandit	1	10	0.6347
1016225	3	bandit	1	0	0.9758
1016235.983	3	bandit	2	10	0.9825
1016243.962	3	bandit	2	10	1.0248
1016252.945	3	bandit	2	0	1.0702
1016259.928	3	bandit	3	0	0.7911
1016266.916	3	bandit	1	0	1.119
1016273.895	3	bandit	2	10	0.8637
1016281.878	3	bandit	2	10	1.1728
1016288.866	3	bandit	2	10	0.7835
1016295.844	3	bandit	2	0	1.5212
1016302.828	3	bandit	1	10	0.6699
1016316.261	3	bandit	2	10	1.3392
1016323.249	3	bandit	2	0	0.6954
1016330.227	3	bandit	1	0	0.4215
1016337.211	3	bandit	1	0	0.7908
1016347.194	3	bandit	2	0	0.3971
1016355.177	3	bandit	3	0	0.5344
1016362.16	3	bandit	2	0	0.8822
1016369.148	3	bandit	2	0	0.7169
1016377.127	3	bandit	1	10	1.4661
1016384.115	3	bandit	1	10	1.0035
1016391.098	3	bandit	1	0	1.1669
1016399.076	3	bandit	1	0	0.9048
1016407.06	3	bandit	2	0	0.5072
1016414.043	3	bandit	3	0	0.4691
1016421.026	3	bandit	1	0	0.7094
1016428.009	3	bandit	2	10	0.5963
1016434.993	3	bandit	2	0	0.8288
1016441.976	3	bandit	1	10	0.4608
1016448.959	3	bandit	1	10	1.8494
1016455.942	3	bandit	1	0	0.5543
1016464.926	3	bandit	2	0	0.3222
1016471.909	3	bandit	2	0	0.7395
1016478.892	3	bandit	1	0	0.6343
1016485.875	3	bandit	1	0	0.5002
1016492.863	3	bandit	3	0	0.7422
1016499.842	3	bandit	1	10	0.883
1016506.825	3	bandit	1	10	0.6882
1016513.813	3	bandit	1	10	0.59
1016520.792	3	bandit	1	0	0.7896
1016527.775	3	bandit	1	0	0.55
1016545.043	3	bandit	2	0	1.7008
1016553.025	3	bandit	1	0	0.3346
1016560.008	3	bandit	3	10	0.7505
1016567.991	3	bandit	3	0	0.5227
1016576.974	3	bandit	1	10	0.2953
1016583.957	3	bandit	1	0	0.95
1016590.941	3	bandit	1	10	0.4209
1016597.924	3	bandit	1	0	1.1758
1016604.907	3	bandit	1	0	0.7017
1016611.89	3	bandit	2	0	0.4007
1016619.874	3	bandit	1	10	0.3078
1016626.857	3	bandit	1	0	0.8424
1016634.84	3	bandit	3	10	0.3466
1016641.823	3	bandit	3	10	0.8227
1016649.81	3	bandit	3	0	0.7914
1016657.79	3	bandit	3	10	0.7225
1016664.773	3	bandit	3	10	0.6696
1016671.756	3	bandit	3	0	1.0865
1016678.74	3	bandit	3	10	0.7495
1016685.723	3	bandit	3	0	0.5415
1016693.706	3	bandit	3	10	0.6214
1016701.689	3	bandit	1	0	0.9049
1016708.672	3	bandit	1	10	0.8172
1016715.656	3	bandit	1	10	1.2873
1016723.639	3	bandit	1	0	0.8992
1016732.639	3	bandit	1	10	0.6747
1016739.622	3	bandit	3	0	0.6278
1016747.622	3	bandit	2	0	0.6341
1016755.605	3	bandit	1	10	0.3608
1016762.588	3	bandit	1	0	1.018