onset	duration	type	choice	rwdval	RT
8554926.029	3	bandit	3	0	0.6898
8554934.029	3	memory	1	0.25	0.0943
8554939.028	3	bandit	1	10	1.0239
8554946.028	3	memory	1	0.25	1.4269
8554951.028	3	bandit	2	0	0.9912
8554958.028	3	memory	1	0.25	1.2595
8554963.028	3	bandit	1	0	1.0712
8554971.028	3	memory	3	0.25	1.7206
8554976.045	3	bandit	3	0	0.8773
8554983.045	3	bandit	2	0	2.4198
8554990.045	3	bandit	3	0	0.5019
8554997.045	3	memory	3	0.25	1.4789
8555003.061	3	bandit	1	0	0.5761
8555011.061	3	memory	1	0.25	0.939
8555016.077	3	bandit	2	0	0.608
8555023.077	3	memory	1	0.25	1.0585
8555028.094	3	bandit	1	10	0.5348
8555035.094	3	memory	1	0.25	1.023
8555040.111	3	bandit	1	0	0.7159
8555047.11	3	memory	1	0.25	1.2853
8555052.127	3	bandit	1	10	0.7548
8555059.127	3	bandit	1	0	0.9034
8555066.127	3	bandit	1	0	0.3475
8555073.127	3	bandit	3	10	0.3198
8555080.127	3	memory	1	0.25	1.2056
8555085.143	3	bandit	3	0	0.5759
8555092.143	3	memory	1	0.25	0.9712
8555097.16	3	bandit	1	0	0.388
8555105.16	3	bandit	1	10	0.5368
8555112.16	3	bandit	1	0	0.6958
8555119.16	3	bandit	3	10	0.4612
8555127.159	3	bandit	3	10	0.5022
8555134.159	3	memory	1	0.25	1.1727
8555140.176	3	bandit	3	0	0.6165
8555147.176	3	memory	1	0.25	1.1398
8555153.192	3	bandit	2	10	0.4544
8555163.192	3	bandit	1	0	0.4603
8555170.192	3	bandit	2	0	0.421
8555177.192	3	bandit	2	0	0.4068
8555185.192	3	bandit	1	0	0.3888
8555192.192	3	memory	1	0.25	1.1475
8555198.208	3	bandit	3	10	0.5026
8555205.208	3	bandit	3	10	0.8598
8555212.208	3	memory	1	-0.25	1.5279
8555217.225	3	bandit	3	0	0.9167
8555225.225	3	bandit	1	10	0.3401
8555232.225	3	memory	3	0.25	1.8203
8555238.241	3	bandit	2	0	0.7092
8555245.241	3	memory	1	0.25	1.3074
8555250.258	3	bandit	3	0	0.4543
8555262.258	3	bandit	3	10	0.5687
8555269.258	3	bandit	3	10	0.5086
8555276.257	3	bandit	3	10	0.7415
8555283.257	3	bandit	3	0	0.8371
8555290.257	3	bandit	1	0	0.9174
8555298.257	3	memory	1	0.25	1.6949
8555304.274	3	bandit	3	0	0.8503
8555312.274	3	bandit	2	0	0.4883
8555319.274	3	bandit	3	10	0.4743
8555326.274	3	memory	1	0.25	0.8905
8555332.29	3	bandit	3	10	0.5405
8555339.29	3	bandit	3	10	0.7144
8555346.29	3	bandit	3	10	0.7237
8555354.29	3	bandit	1	0	0.6285
8555361.29	3	memory	3	0.25	1.3793
8555366.306	3	bandit	3	0	0.83
8555373.306	3	memory	1	0.25	1.2048
8555378.323	3	bandit	1	0	0.8909
8555385.323	3	memory	1	0.25	1.2532
8555392.323	3	bandit	3	0	1.441
8555400.323	3	bandit	3	0	0.7894
8555407.322	3	bandit	3	10	0.6212
8555414.322	3	memory	1	0.25	0.9372
8555422.339	3	bandit	3	10	0.8506
8555429.339	3	memory	1	0.25	1.0325
8555434.355	3	bandit	1	0	0.7751
8555442.355	3	memory	1	0.25	0.9038
8555448.372	3	bandit	2	0	0.9376
8555456.372	3	memory	1	0.25	0.8926
8555461.388	3	bandit	3	10	0.7415
8555468.388	3	memory	1	0.25	0.7623
8555473.405	3	bandit	3	0	0.8704
8555481.405	3	memory	4	0.25	1.3797
8555488.421	3	bandit	3	0	0.9102
8555495.421	3	memory	3	0.25	1.4579
8555503.438	3	bandit	2	0	1.2785
8555510.438	3	memory	1	0.25	1.1119
8555515.454	3	bandit	3	10	0.7824
8555522.454	3	memory	1	0.25	0.8837
8555530.471	3	bandit	3	10	0.7426
8555539.471	3	bandit	3	10	1.6356
8555546.471	3	memory	1	0.25	0.972
8555552.487	3	bandit	3	10	0.897
8555561.487	3	memory	1	0.25	0.8633
8555566.504	3	bandit	1	10	0.8433
8555574.504	3	bandit	3	0	0.5075
8555581.504	3	memory	3	0.25	1.1865
8555588.52	3	bandit	3	0	0.5012
8555595.52	3	memory	1	0.25	1.1986
8555600.537	3	bandit	3	0	0.5011
8555607.537	3	bandit	2	0	0.4606
8555614.536	3	memory	1	0.25	0.8693
8555619.553	3	bandit	3	0	0.5149
8555627.553	3	memory	1	0.25	0.9101
8555633.57	3	bandit	3	0	0.4406
8555641.569	3	bandit	3	0	0.4807
8555650.569	3	bandit	1	10	0.582
8555657.569	3	memory	1	0.25	1.3063
8555664.586	3	bandit	1	10	0.3683
8555671.586	3	bandit	1	0	1.0975
8555678.586	3	bandit	1	0	0.6622
8555685.586	3	memory	1	0.25	0.9638
8555690.602	3	bandit	3	0	0.521
8555697.602	3	memory	1	0.25	0.8835
8555703.619	3	bandit	1	10	0.4682
8555710.619	3	memory	1	0.25	0.8238
8555717.635	3	bandit	1	10	0.4009
8555724.635	3	bandit	1	10	0.7594
8555734.635	3	memory	1	0.25	1.052
8555739.652	3	bandit	2	10	0.9108
8555746.651	3	bandit	1	10	0.5486
8555756.654	3	memory	4	0.25	2.0232
8555761.668	3	bandit	3	0	1.0441
8555768.668	3	bandit	1	0	0.468
8555775.668	3	memory	1	0.25	1.0718
8555781.684	3	bandit	1	0	0.4486
8555788.684	3	bandit	2	0	0.4683
8555795.684	3	bandit	1	0	0.4081
8555802.684	3	bandit	3	0	0.4799
8555809.684	3	bandit	1	0	0.4411
8555816.684	3	bandit	3	0	0.507
8555823.684	3	memory	1	0.25	1.0914
8555828.7	3	bandit	2	0	0.4485
8555836.702	3	memory	1	0.25	1.0244
8555842.717	3	bandit	1	0	0.4218
8555852.718	3	memory	1	0.25	0.8231
8555858.733	3	bandit	2	0	0.52
8555866.733	3	bandit	3	0	0.7691
8555873.733	3	bandit	1	0	0.4739
8555881.733	3	bandit	1	10	0.4075
8555888.733	3	bandit	1	0	0.702
8555898.733	3	memory	1	0.25	0.8488
8555903.749	3	bandit	2	10	0.7822
8555910.749	3	bandit	2	10	0.7496
8555918.749	3	bandit	2	10	0.5219
8555927.749	3	bandit	2	0	0.501
8555934.749	3	memory	1	0.25	0.9197
8555940.766	3	bandit	2	10	0.7017
8555949.765	3	bandit	2	10	0.4609
8555957.766	3	bandit	2	10	0.7427
8555965.765	3	bandit	2	10	0.6019
8555973.767	3	memory	4	0.25	1.7959
8555978.782	3	bandit	2	10	0.6215
8555986.782	3	memory	1	0.25	1.0058
8555991.798	3	bandit	2	0	1.305
8555998.8	3	memory	1	0.25	1.0512
8556003.815	3	bandit	1	0	0.548
8556010.815	3	bandit	2	0	0.5345
8556017.815	3	bandit	2	10	0.461
8556024.814	3	bandit	2	0	0.5876
8556031.815	3	memory	1	0.25	0.9772
8556036.831	3	bandit	2	0	0.7366
8556045.831	3	bandit	2	10	0.4007
8556052.832	3	memory	1	0.25	0.9038
8556057.847	3	bandit	2	10	0.5874
8556064.847	3	bandit	2	10	0.5736
8556071.847	3	bandit	2	10	0.7558
8556078.847	3	bandit	2	0	0.5882
8556086.847	3	bandit	2	0	0.5084
8556094.849	3	memory	1	0.25	0.8989
8556103.864	3	bandit	2	10	0.6357
8556111.865	3	memory	1	0.25	0.823
8556116.88	3	bandit	2	0	0.6617
8556124.882	3	memory	1	0.25	1.1328
8556133.896	3	bandit	1	0	0.5892
8556141.898	3	memory	1	0.25	0.8561
8556146.913	3	bandit	2	0	0.871
8556153.914	3	memory	1	0.25	0.9636
8556159.929	3	bandit	2	0	0.9786
8556167.93	3	memory	4	0.25	2.0083